Frequentie (Hz),Spanning (V),Fase (degrees)
99.981,0.024,0
99.985,0.024,0
99.999,0.024,0
100.002,0.024,0
100.012,0.024,0
100.021,0.024,0
109.99,0.028,0
109.992,0.028,0
109.992,0.028,0
109.994,0.028,0
109.994,0.028,0
109.996,0.028,0
109.997,0.028,0
109.997,0.028,0
109.997,0.028,0
109.997,0.028,0
109.997,0.028,0
109.999,0.028,0
109.999,0.028,0
110,0.028,0
110.001,0.028,0
110.001,0.028,0
110.01,0.028,0
110.018,0.028,0
119.992,0.032,0
119.995,0.032,0
119.997,0.032,0
119.999,0.032,0
119.999,0.032,0
120.002,0.032,0
120.007,0.032,0
129.992,0.036,0
129.993,0.036,0
129.994,0.036,0
129.997,0.036,0
130,0.036,0
130.001,0.036,0
130.001,0.036,0
139.996,0.041,0
139.998,0.041,0
139.999,0.041,0
140,0.041,0
140.003,0.041,0
140.011,0.041,0
140.106,0.041,0
149.998,0.046,0
149.999,0.046,0
150.001,0.046,0
150.001,0.046,0
150.003,0.046,0
159.998,0.053,0
159.999,0.053,0
160.001,0.053,0
160.003,0.053,0
160.007,0.053,0
169.992,0.061,0
169.993,0.061,0
169.994,0.061,0
170.002,0.061,0
170.008,0.061,0
180.005,0.071,0
180.009,0.071,0
180.009,0.071,0
180.011,0.071,0
180.016,0.071,0
180.895,0.072,0
190.008,0.084,0
190.01,0.084,0
190.01,0.084,0
190.012,0.084,0
190.013,0.084,0
199.994,0.1,0
199.995,0.1,0
199.997,0.1,0
200.001,0.1,0
210.003,0.121,0
210.006,0.121,0
210.007,0.121,0
210.012,0.121,0
210.013,0.121,0
219.954,0.149,0
219.964,0.149,0
219.968,0.149,0
219.969,0.149,0
219.98,0.149,0
219.982,0.149,0
229.974,0.18,0
229.979,0.18,0
229.979,0.18,0
229.986,0.18,0
229.987,0.18,0
239.827,0.201,0
239.993,0.202,0
239.996,0.202,0
239.997,0.202,0
242.533,0.203,0
250.031,0.204,0
250.038,0.204,0
250.04,0.204,0
250.041,0.204,0
250.042,0.204,0
250.048,0.204,0
250.048,0.204,0
260.036,0.19,0
260.046,0.19,0
260.05,0.19,0
260.051,0.19,0
260.055,0.19,0
260.058,0.19,0
260.064,0.19,0
260.065,0.19,0
260.085,0.19,0
270.022,0.17,0
270.031,0.17,0
270.032,0.17,0
270.033,0.17,0
270.039,0.17,0
270.041,0.17,0
270.049,0.17,0
270.049,0.17,0
270.049,0.17,0
270.216,0.17,0
280.004,0.151,0
280.012,0.151,0
280.014,0.151,0
280.016,0.151,0
280.029,0.151,0
289.981,0.134,0
289.982,0.134,0
289.982,0.134,0
289.984,0.134,0
289.987,0.134,0
289.996,0.134,0
299.961,0.12,0
299.965,0.12,0
299.965,0.12,0
299.968,0.12,0
299.969,0.12,0
299.973,0.12,0
299.974,0.12,0
309.991,0.108,0
309.992,0.108,0
309.992,0.108,0
309.995,0.108,0
314.92,0.103,0
319.985,0.098,0
319.99,0.098,0
319.99,0.098,0
319.995,0.098,0
323.172,0.095,0
329.986,0.09,0
329.991,0.09,0
329.994,0.09,0
329.996,0.09,0
339.994,0.083,0
339.995,0.083,0
339.995,0.083,0
339.998,0.083,0
339.999,0.083,0
349.995,0.077,0
349.998,0.077,0
350,0.077,0
350,0.077,0
350,0.077,0
350.003,0.077,0
350.063,0.077,0
360,0.071,0
360.001,0.072,0
360.002,0.071,0
360.007,0.071,0
369.998,0.067,0
369.998,0.067,0
370,0.067,0
370.001,0.067,0
370.001,0.067,0
379.995,0.063,0
379.996,0.063,0
379.997,0.063,0
379.998,0.063,0
379.999,0.063,0
380,0.063,0
380,0.063,0
380.002,0.063,0
380.004,0.063,0
390.002,0.06,0
390.004,0.06,0
390.005,0.06,0
390.008,0.06,0
399.995,0.056,0
399.998,0.057,0
400.001,0.057,0
400.001,0.057,0
400.003,0.056,0
409.994,0.054,0
409.995,0.054,0
409.996,0.054,0
409.996,0.054,0
410.001,0.054,0
419.997,0.051,0
419.999,0.051,0
420.002,0.051,0
420.003,0.051,0
420.004,0.051,0
420.004,0.051,0
429.994,0.049,0
430,0.049,0
430.002,0.049,0
430.004,0.049,0
439.998,0.047,0
440,0.047,0
440.001,0.047,0
440.001,0.047,0
440.005,0.047,0
440.005,0.047,0
449.994,0.045,0
449.995,0.045,0
449.998,0.045,0
449.999,0.045,0
450,0.045,0
450.008,0.045,0
460,0.043,0
460,0.043,0
460.001,0.043,0
460.004,0.043,0
460.015,0.043,0
470.002,0.042,0
470.003,0.042,0
470.003,0.042,0
470.003,0.042,0
470.006,0.042,0
479.994,0.04,0
479.996,0.04,0
479.998,0.04,0
480.002,0.04,0
480.002,0.04,0
480.334,0.04,0
489.998,0.039,0
489.999,0.039,0
490.002,0.039,0
490.002,0.039,0
490.006,0.039,0
499.99,0.038,0
499.992,0.038,0
499.994,0.038,0
499.995,0.038,0
500.003,0.038,0
509.996,0.037,0
509.997,0.037,0
509.999,0.037,0
510,0.037,0
510.002,0.037,0
519.995,0.036,0
519.998,0.035,0
520.001,0.036,0
520.005,0.036,0
520.006,0.036,0
529.99,0.035,0
529.992,0.035,0
529.997,0.035,0
530.001,0.035,0
530.001,0.035,0
530.007,0.035,0
540,0.034,0
540.001,0.034,0
540.002,0.034,0
540.006,0.034,0
540.007,0.034,0
549.963,0.033,0
549.992,0.033,0
549.999,0.033,0
550,0.033,0
550.001,0.033,0
550.002,0.033,0
559.988,0.032,0
559.994,0.032,0
559.998,0.032,0
560.001,0.032,0
560.002,0.032,0
570,0.031,0
570.001,0.031,0
570.004,0.031,0
570.01,0.031,0
579.995,0.03,0
579.996,0.03,0
579.998,0.03,0
579.999,0.03,0
580,0.03,0
580.003,0.03,0
589.99,0.03,0
589.994,0.03,0
589.997,0.03,0
589.998,0.03,0
590.004,0.03,0
590.004,0.03,0
599.993,0.029,0
599.994,0.029,0
599.997,0.029,0
600.006,0.029,0
609.988,0.028,0
609.992,0.028,0
609.997,0.028,0
609.997,0.028,0
609.999,0.028,0
610.005,0.028,0
619.994,0.028,0
620.001,0.028,0
620.002,0.028,0
620.009,0.028,0
620.012,0.028,0
629.989,0.027,0
629.996,0.027,0
629.999,0.027,0
629.999,0.027,0
630.002,0.027,0
639.989,0.026,0
639.998,0.026,0
640,0.026,0
640.001,0.026,0
640.003,0.026,0
640.004,0.026,0
649.992,0.026,0
649.992,0.026,0
649.994,0.026,0
650.002,0.026,0
650.003,0.026,0
659.991,0.025,0
659.993,0.025,0
659.999,0.025,0
659.999,0.025,0
660.001,0.025,0
660.003,0.025,0
669.98,0.025,0
669.991,0.025,0
670.005,0.025,0
670.008,0.025,0
670.022,0.025,0
679.978,0.024,0
679.984,0.024,0
679.996,0.024,0
679.998,0.024,0
679.999,0.024,0
680.004,0.024,0
689.99,0.024,0
689.992,0.024,0
689.993,0.024,0
690.005,0.024,0
690.007,0.024,0
690.015,0.024,0
699.995,0.024,0
699.996,0.024,0
699.997,0.024,0
700.003,0.024,0
700.008,0.024,0
700.014,0.024,0
709.986,0.023,0
709.99,0.023,0
710.004,0.023,0
710.011,0.023,0
710.018,0.023,0
719.993,0.023,0
720.003,0.023,0
720.006,0.023,0
720.007,0.023,0
729.368,0.022,0
729.984,0.022,0
729.994,0.022,0
729.995,0.022,0
729.995,0.022,0
739.988,0.022,0
739.988,0.022,0
739.999,0.022,0
740.002,0.022,0
740.003,0.022,0
749.981,0.022,0
749.998,0.022,0
750.003,0.022,0
750.005,0.022,0
750.012,0.022,0
750.017,0.022,0
759.985,0.021,0
759.993,0.021,0
759.994,0.021,0
760.002,0.021,0
760.006,0.021,0
760.007,0.021,0
769.99,0.021,0
769.993,0.021,0
769.996,0.021,0
770,0.021,0
770.004,0.021,0
770.007,0.021,0
779.991,0.021,0
779.993,0.02,0
779.997,0.021,0
780.004,0.021,0
789.99,0.02,0
789.992,0.02,0
789.997,0.02,0
789.998,0.02,0
790.004,0.02,0
799.99,0.02,0
800.006,0.02,0
800.007,0.02,0
800.01,0.02,0
800.013,0.02,0
800.013,0.02,0
809.992,0.02,0
810.001,0.02,0
810.003,0.02,0
810.009,0.02,0
810.01,0.02,0
810.013,0.02,0
819.996,0.019,0
820.001,0.019,0
820.006,0.019,0
820.009,0.019,0
820.01,0.019,0
829.985,0.019,0
829.989,0.019,0
829.991,0.019,0
829.998,0.019,0
829.999,0.019,0
830.007,0.019,0
839.985,0.019,0
839.996,0.019,0
839.998,0.019,0
839.999,0.019,0
840.008,0.019,0
840.011,0.019,0
849.989,0.019,0
849.995,0.019,0
849.998,0.019,0
850.003,0.019,0
850.004,0.019,0
859.993,0.018,0
859.997,0.018,0
859.998,0.018,0
859.999,0.018,0
860.008,0.018,0
860.008,0.018,0
869.996,0.018,0
869.998,0.018,0
869.999,0.018,0
870.01,0.018,0
870.014,0.018,0
879.996,0.018,0
879.999,0.018,0
880,0.018,0
880.01,0.018,0
880.42,0.018,0
889.983,0.018,0
889.997,0.018,0
889.999,0.018,0
890.005,0.018,0
890.006,0.018,0
899.976,0.017,0
899.984,0.017,0
899.987,0.017,0
899.995,0.017,0
899.996,0.017,0
909.933,0.017,0
909.984,0.017,0
909.992,0.017,0
910.01,0.017,0
912.535,0.017,0
919.991,0.017,0
919.994,0.017,0
919.994,0.017,0
920.019,0.017,0
920.023,0.017,0
929.996,0.017,0
929.996,0.017,0
930,0.017,0
930.001,0.017,0
930.022,0.017,0
939.981,0.016,0
939.994,0.017,0
939.999,0.017,0
940.005,0.017,0
940.005,0.017,0
940.008,0.017,0
943.282,0.016,0
949.977,0.016,0
949.998,0.016,0
950,0.016,0
950.028,0.016,0
959.987,0.016,0
959.991,0.016,0
959.999,0.016,0
960.023,0.016,0
969.977,0.016,0
969.992,0.016,0
969.997,0.016,0
970.006,0.016,0
970.008,0.016,0
979.991,0.016,0
979.993,0.016,0
979.999,0.016,0
980,0.016,0
980.004,0.016,0
980.004,0.016,0
989.729,0.016,0
989.99,0.016,0
989.997,0.016,0
989.998,0.016,0
989.998,0.016,0
999.971,0.015,0
999.981,0.015,0
999.993,0.015,0
999.993,0.015,0
999.999,0.015,0
1000,0.015,0
1000.014,0.015,0