Frequentie (Hz),Spanning (V),Fase (degrees)
99.975,0.012,0
99.975,0.012,0
99.979,0.012,0
99.992,0.012,0
99.993,0.012,0
99.994,0.012,0
100.003,0.012,0
100.009,0.012,0
100.012,0.012,0
100.014,0.012,0
100.021,0.012,0
100.023,0.012,0
107.463,0.013,0
109.987,0.014,0
109.992,0.014,0
109.993,0.014,0
109.995,0.014,0
110.012,0.014,0
110.012,0.014,0
110.02,0.014,0
116.312,0.015,0
119.98,0.016,0
119.987,0.016,0
119.991,0.016,0
119.992,0.016,0
119.992,0.016,0
120.016,0.016,0
129.995,0.018,0
129.999,0.018,0
130.005,0.018,0
130.005,0.018,0
130.008,0.018,0
130.009,0.018,0
130.013,0.018,0
139.99,0.021,0
139.992,0.021,0
139.997,0.021,0
139.998,0.021,0
139.998,0.021,0
139.999,0.021,0
139.999,0.021,0
140.001,0.021,0
140.002,0.021,0
140.002,0.021,0
140.008,0.02,0
140.01,0.021,0
140.015,0.021,0
149.994,0.023,0
149.996,0.023,0
149.996,0.023,0
149.996,0.023,0
149.998,0.023,0
149.999,0.023,0
150.001,0.023,0
150.001,0.023,0
150.003,0.023,0
159.992,0.027,0
159.996,0.027,0
160.004,0.027,0
160.006,0.027,0
160.01,0.027,0
169.949,0.031,0
169.981,0.031,0
169.984,0.031,0
169.988,0.031,0
169.988,0.031,0
169.989,0.031,0
169.991,0.031,0
169.994,0.031,0
179.984,0.036,0
179.994,0.036,0
179.995,0.036,0
179.999,0.036,0
180.014,0.036,0
180.021,0.036,0
189.992,0.043,0
189.998,0.043,0
190.011,0.043,0
190.011,0.043,0
190.013,0.043,0
190.016,0.043,0
199.993,0.052,0
200.003,0.052,0
200.005,0.052,0
200.005,0.052,0
200.011,0.052,0
200.013,0.052,0
200.013,0.052,0
209.995,0.065,0
210.011,0.065,0
210.015,0.065,0
210.02,0.065,0
210.028,0.065,0
210.029,0.065,0
210.034,0.065,0
219.932,0.083,0
219.934,0.083,0
219.948,0.083,0
219.949,0.083,0
219.957,0.083,0
219.972,0.083,0
220.272,0.083,0
228.708,0.099,0
229.955,0.107,0
229.957,0.107,0
229.959,0.107,0
229.963,0.107,0
229.965,0.107,0
229.965,0.107,0
229.968,0.107,0
229.973,0.107,0
229.973,0.107,0
229.973,0.107,0
229.975,0.107,0
239.997,0.125,0
239.999,0.125,0
240,0.125,0
240,0.125,0
240.002,0.125,0
240.006,0.125,0
250.023,0.124,0
250.066,0.124,0
250.069,0.124,0
250.073,0.124,0
250.076,0.124,0
250.078,0.124,0
250.078,0.124,0
253.574,0.122,0
260.071,0.111,0
260.093,0.111,0
260.095,0.111,0
260.098,0.11,0
260.12,0.111,0
270.028,0.096,0
270.029,0.096,0
270.038,0.095,0
270.047,0.096,0
270.052,0.096,0
270.053,0.096,0
271.818,0.094,0
279.999,0.083,0
280.009,0.083,0
280.023,0.083,0
280.029,0.083,0
280.03,0.083,0
280.038,0.083,0
289.958,0.072,0
289.959,0.072,0
289.963,0.072,0
289.967,0.072,0
289.987,0.072,0
299.578,0.063,0
299.935,0.064,0
299.937,0.064,0
299.939,0.064,0
299.943,0.063,0
309.985,0.057,0
309.986,0.057,0
309.988,0.057,0
309.988,0.057,0
309.989,0.057,0
312.365,0.055,0
319.979,0.051,0
319.98,0.051,0
319.98,0.051,0
319.985,0.051,0
319.99,0.051,0
329.994,0.046,0
329.997,0.046,0
330.003,0.046,0
330.008,0.046,0
339.993,0.043,0
339.994,0.043,0
339.994,0.043,0
339.996,0.043,0
339.999,0.043,0
340,0.043,0
340.001,0.043,0
340.002,0.043,0
340.003,0.043,0
340.003,0.043,0
340.888,0.042,0
349.994,0.039,0
349.997,0.039,0
349.998,0.039,0
349.998,0.039,0
350,0.039,0
350.001,0.039,0
359.968,0.037,0
359.991,0.037,0
360,0.037,0
360.001,0.037,0
360.002,0.037,0
360.008,0.037,0
360.008,0.037,0
369.994,0.034,0
369.999,0.034,0
370.001,0.034,0
370.002,0.034,0
370.004,0.034,0
370.011,0.034,0
379.999,0.032,0
380,0.032,0
380.002,0.032,0
380.004,0.032,0
380.008,0.032,0
389.998,0.03,0
390.005,0.03,0
390.005,0.03,0
390.007,0.03,0
399.989,0.029,0
399.998,0.029,0
400.002,0.029,0
400.004,0.029,0
400.013,0.029,0
409.991,0.027,0
409.995,0.027,0
409.996,0.027,0
409.999,0.027,0
410.002,0.027,0
410.005,0.027,0
419.993,0.026,0
419.999,0.026,0
420,0.026,0
420.001,0.026,0
420.014,0.026,0
429.977,0.025,0
429.989,0.025,0
429.996,0.025,0
429.997,0.025,0
430.005,0.025,0
439.996,0.024,0
439.997,0.024,0
439.999,0.024,0
440.001,0.024,0
440.018,0.024,0
449.993,0.023,0
449.998,0.023,0
450,0.023,0
450.008,0.023,0
450.01,0.023,0
450.014,0.023,0
459.98,0.022,0
459.993,0.022,0
460.004,0.022,0
460.016,0.022,0
460.017,0.022,0
462.895,0.022,0
470.001,0.021,0
470.006,0.021,0
470.007,0.021,0
470.008,0.021,0
470.013,0.021,0
479.99,0.02,0
479.993,0.02,0
479.997,0.02,0
480.005,0.02,0
480.008,0.02,0
480.012,0.02,0
489.996,0.02,0
489.998,0.02,0
490.005,0.02,0
490.01,0.02,0
499.523,0.019,0
499.978,0.019,0
499.992,0.019,0
500.004,0.019,0
500.006,0.019,0
500.018,0.019,0
509.993,0.018,0
509.993,0.018,0
509.995,0.018,0
509.999,0.018,0
510.008,0.018,0
519.993,0.018,0
519.997,0.018,0
519.997,0.018,0
520.006,0.018,0
520.007,0.018,0
529.999,0.017,0
530,0.017,0
530.001,0.017,0
530.013,0.017,0
539.998,0.017,0
539.999,0.017,0
540.002,0.017,0
540.005,0.017,0
540.008,0.017,0
540.014,0.017,0
549.993,0.016,0
549.997,0.016,0
550.004,0.016,0
550.008,0.016,0
550.019,0.016,0
558.74,0.016,0
559.987,0.016,0
559.988,0.016,0
560.003,0.016,0
560.008,0.016,0
560.013,0.016,0
569.988,0.016,0
569.989,0.016,0
570.003,0.016,0
570.006,0.016,0
570.011,0.016,0
570.017,0.016,0
579.989,0.015,0
579.989,0.015,0
580.006,0.015,0
580.008,0.015,0
580.021,0.015,0
589.995,0.015,0
590.002,0.015,0
590.002,0.015,0
590.008,0.015,0
599.975,0.015,0
599.987,0.015,0
599.998,0.015,0
600.006,0.015,0
600.011,0.015,0
600.02,0.015,0
609.993,0.014,0
609.996,0.014,0
610.003,0.014,0
610.005,0.014,0
610.005,0.014,0
619.969,0.014,0
619.992,0.014,0
619.997,0.014,0
620.007,0.014,0
620.008,0.014,0
620.012,0.014,0
629.983,0.014,0
629.985,0.014,0
629.997,0.014,0
630.012,0.014,0
633.23,0.013,0
639.991,0.013,0
640.001,0.013,0
640.012,0.013,0
640.028,0.013,0
640.034,0.013,0
649.985,0.013,0
649.996,0.013,0
649.998,0.013,0
650.001,0.013,0
650.002,0.013,0
650.007,0.013,0
659.986,0.013,0
659.999,0.013,0
660.006,0.013,0
660.023,0.013,0
669.996,0.013,0
670.003,0.013,0
670.004,0.013,0
670.011,0.013,0
670.015,0.013,0
679.965,0.012,0
679.983,0.012,0
679.989,0.012,0
680.002,0.012,0
680.005,0.012,0
682.45,0.012,0
689.991,0.012,0
689.996,0.012,0
690.005,0.012,0
690.026,0.012,0
699.97,0.012,0
699.994,0.012,0
699.997,0.012,0
699.997,0.012,0
700.01,0.012,0
709.994,0.012,0
709.995,0.012,0
710.008,0.012,0
710.011,0.012,0
710.019,0.012,0
719.97,0.011,0
719.986,0.011,0
719.987,0.011,0
719.999,0.011,0
720.001,0.011,0
720.032,0.011,0
729.994,0.011,0
730.002,0.011,0
730.008,0.011,0
730.014,0.011,0
730.017,0.011,0
739.968,0.011,0
739.985,0.011,0
739.998,0.011,0
740.003,0.011,0
740.012,0.011,0
740.012,0.011,0
749.977,0.011,0
750.003,0.011,0
750.005,0.011,0
750.014,0.011,0
750.014,0.011,0
759.417,0.011,0
759.989,0.011,0
759.991,0.011,0
759.997,0.011,0
760.015,0.011,0
760.033,0.011,0
769.98,0.01,0
769.985,0.011,0
769.987,0.01,0
769.99,0.011,0
769.995,0.01,0
770.017,0.011,0
779.991,0.01,0
779.996,0.01,0
780,0.01,0
780.006,0.01,0
780.008,0.01,0
780.02,0.01,0
789.97,0.01,0
789.993,0.01,0
789.996,0.01,0
790.013,0.01,0
799.972,0.01,0
799.986,0.01,0
799.993,0.01,0
799.995,0.01,0
799.996,0.01,0
800.003,0.01,0
809.968,0.01,0
809.988,0.01,0
809.989,0.01,0
809.991,0.01,0
810.004,0.01,0
819.99,0.01,0
819.995,0.01,0
820.005,0.01,0
820.009,0.01,0
820.028,0.01,0
829.985,0.01,0
829.999,0.01,0
830.006,0.01,0
830.016,0.01,0
830.047,0.01,0
839.965,0.009,0
839.976,0.009,0
839.982,0.009,0
839.986,0.009,0
839.991,0.009,0
840.018,0.009,0
849.978,0.009,0
849.999,0.009,0
850.002,0.009,0
850.011,0.009,0
850.025,0.009,0
850.029,0.009,0
859.971,0.009,0
859.99,0.009,0
859.992,0.009,0
860.015,0.009,0
860.026,0.009,0
869.961,0.009,0
869.975,0.009,0
869.977,0.009,0
869.998,0.009,0
870.009,0.009,0
879.955,0.009,0
879.974,0.009,0
879.993,0.009,0
879.994,0.009,0
880.011,0.009,0
889.957,0.009,0
889.975,0.009,0
889.989,0.009,0
890,0.009,0
890.03,0.009,0
899.98,0.009,0
899.984,0.009,0
899.988,0.009,0
899.989,0.009,0
900.027,0.009,0
909.989,0.009,0
909.998,0.009,0
910.009,0.009,0
910.013,0.009,0
910.029,0.009,0
919.987,0.009,0
919.997,0.009,0
920.007,0.009,0
920.007,0.009,0
920.011,0.008,0
920.015,0.009,0
929.974,0.008,0
929.996,0.008,0
930.005,0.008,0
930.01,0.008,0
930.026,0.008,0
939.986,0.008,0
939.995,0.008,0
939.995,0.008,0
939.999,0.008,0
940.004,0.008,0
940.011,0.008,0
949.992,0.008,0
949.993,0.008,0
950.006,0.008,0
950.027,0.008,0
959.971,0.008,0
960.01,0.008,0
960.011,0.008,0
960.017,0.008,0
960.024,0.008,0
966.496,0.008,0
969.985,0.008,0
969.999,0.008,0
970.01,0.008,0
970.038,0.008,0
970.041,0.008,0
979.989,0.008,0
979.99,0.008,0
980,0.008,0
980.005,0.008,0
980.024,0.008,0
987.738,0.008,0
989.974,0.008,0
990.007,0.008,0
990.01,0.008,0
990.018,0.008,0
990.02,0.008,0
999.936,0.008,0
999.947,0.008,0
999.973,0.008,0
999.992,0.008,0
999.993,0.008,0
999.998,0.008,0
1000.002,0.008,0
1000.009,0.008,0
1000.011,0.008,0
1000.022,0.008,0
1000.025,0.008,0
1000.026,0.008,0
1000.034,0.008,0
1000.04,0.008,0
1000.051,0.008,0