Frequentie (Hz),Spanning (V),Fase (degrees)
99.994,0.056,0.000
99.996,0.056,0.000
99.996,0.056,0.000
99.998,0.056,0.000
99.998,0.056,0.000
99.998,0.056,0.000
100.001,0.056,0.000
100.001,0.056,0.000
100.003,0.056,0.000
100.004,0.056,0.000
100.005,0.056,0.000
100.010,0.056,0.000
100.010,0.056,0.000
100.011,0.056,0.000
100.014,0.056,0.000
101.659,0.058,0.000
109.998,0.064,0.000
110.000,0.064,0.000
110.001,0.064,0.000
110.003,0.064,0.000
110.004,0.064,0.000
119.997,0.072,0.000
119.999,0.072,0.000
120.000,0.072,0.000
120.000,0.072,0.000
120.002,0.072,0.000
129.998,0.082,0.000
129.998,0.082,0.000
129.999,0.082,0.000
130.002,0.082,0.000
130.004,0.082,0.000
139.995,0.092,0.000
139.996,0.092,0.000
140.000,0.092,0.000
140.000,0.092,0.000
149.998,0.104,0.000
149.998,0.104,0.000
149.999,0.104,0.000
150.001,0.104,0.000
150.001,0.104,0.000
150.002,0.104,0.000
150.005,0.104,0.000
159.995,0.117,0.000
159.997,0.117,0.000
160.000,0.117,0.000
160.001,0.117,0.000
162.847,0.120,0.000
169.997,0.132,0.000
170.001,0.132,0.000
170.004,0.132,0.000
170.007,0.132,0.000
175.725,0.140,0.000
179.998,0.150,0.000
179.998,0.150,0.000
180.001,0.150,0.000
180.004,0.150,0.000
189.998,0.171,0.000
190.001,0.171,0.000
190.002,0.171,0.000
190.002,0.171,0.000
190.003,0.171,0.000
190.003,0.171,0.000
199.422,0.192,0.000
199.996,0.195,0.000
199.999,0.195,0.000
200.000,0.195,0.000
200.001,0.195,0.000
200.001,0.195,0.000
209.995,0.222,0.000
210.000,0.222,0.000
210.000,0.222,0.000
210.001,0.222,0.000
210.001,0.222,0.000
210.005,0.222,0.000
210.005,0.222,0.000
210.005,0.222,0.000
219.989,0.252,0.000
219.994,0.252,0.000
219.995,0.252,0.000
219.996,0.252,0.000
219.999,0.252,0.000
229.708,0.280,0.000
229.992,0.282,0.000
229.992,0.282,0.000
229.993,0.282,0.000
229.994,0.282,0.000
233.170,0.288,0.000
239.988,0.307,0.000
239.992,0.307,0.000
239.993,0.307,0.000
239.994,0.307,0.000
240.815,0.308,0.000
250.000,0.322,0.000
250.000,0.322,0.000
250.000,0.322,0.000
250.002,0.322,0.000
250.003,0.322,0.000
260.007,0.324,0.000
260.009,0.324,0.000
260.010,0.324,0.000
260.011,0.324,0.000
260.011,0.324,0.000
260.017,0.324,0.000
260.017,0.324,0.000
260.018,0.324,0.000
270.006,0.314,0.000
270.006,0.314,0.000
270.008,0.314,0.000
270.009,0.314,0.000
270.010,0.314,0.000
270.011,0.314,0.000
270.011,0.314,0.000
280.004,0.297,0.000
280.007,0.297,0.000
280.009,0.297,0.000
280.009,0.297,0.000
280.009,0.297,0.000
280.015,0.297,0.000
287.390,0.285,0.000
290.003,0.278,0.000
290.004,0.278,0.000
290.012,0.278,0.000
290.014,0.278,0.000
299.994,0.258,0.000
299.995,0.258,0.000
299.995,0.258,0.000
299.997,0.259,0.000
310.002,0.240,0.000
310.002,0.239,0.000
310.004,0.240,0.000
310.004,0.240,0.000
319.996,0.223,0.000
319.996,0.223,0.000
320.000,0.223,0.000
320.000,0.222,0.000
329.992,0.207,0.000
329.995,0.207,0.000
329.995,0.207,0.000
329.997,0.207,0.000
329.998,0.207,0.000
339.998,0.194,0.000
339.999,0.194,0.000
339.999,0.193,0.000
340.000,0.193,0.000
340.003,0.193,0.000
349.998,0.181,0.000
349.998,0.181,0.000
349.999,0.181,0.000
349.999,0.181,0.000
350.000,0.181,0.000
359.996,0.170,0.000
359.998,0.170,0.000
359.998,0.170,0.000
360.003,0.170,0.000
369.996,0.161,0.000
369.997,0.161,0.000
369.998,0.161,0.000
369.999,0.161,0.000
379.997,0.152,0.000
379.998,0.152,0.000
379.998,0.152,0.000
380.000,0.152,0.000
389.783,0.144,0.000
389.999,0.144,0.000
390.001,0.144,0.000
390.002,0.144,0.000
398.809,0.138,0.000
399.999,0.137,0.000
399.999,0.137,0.000
399.999,0.137,0.000
400.003,0.137,0.000
409.996,0.131,0.000
410.000,0.131,0.000
410.000,0.131,0.000
410.000,0.131,0.000
410.001,0.131,0.000
413.682,0.128,0.000
419.999,0.125,0.000
419.999,0.125,0.000
420.000,0.125,0.000
420.001,0.125,0.000
420.002,0.125,0.000
429.998,0.120,0.000
430.001,0.120,0.000
430.002,0.120,0.000
430.002,0.120,0.000
430.005,0.120,0.000
439.996,0.115,0.000
439.998,0.115,0.000
439.999,0.115,0.000
440.001,0.115,0.000
440.001,0.115,0.000
449.998,0.111,0.000
450.000,0.111,0.000
450.000,0.111,0.000
450.002,0.111,0.000
450.002,0.111,0.000
458.824,0.107,0.000
459.994,0.107,0.000
460.000,0.107,0.000
460.000,0.107,0.000
460.001,0.107,0.000
460.003,0.107,0.000
469.997,0.103,0.000
469.998,0.103,0.000
469.999,0.103,0.000
470.000,0.103,0.000
470.000,0.103,0.000
479.998,0.099,0.000
479.999,0.099,0.000
480.000,0.099,0.000
480.001,0.099,0.000
480.003,0.099,0.000
489.998,0.096,0.000
490.000,0.096,0.000
490.000,0.096,0.000
490.000,0.096,0.000
490.000,0.096,0.000
490.002,0.096,0.000
499.995,0.093,0.000
499.996,0.093,0.000
499.998,0.093,0.000
500.001,0.093,0.000
500.004,0.093,0.000
509.998,0.090,0.000
509.998,0.090,0.000
510.001,0.090,0.000
510.001,0.090,0.000
510.002,0.090,0.000
519.995,0.088,0.000
519.998,0.088,0.000
519.998,0.088,0.000
520.002,0.088,0.000
520.003,0.088,0.000
529.995,0.085,0.000
529.997,0.085,0.000
529.998,0.085,0.000
529.998,0.085,0.000
539.997,0.083,0.000
539.999,0.083,0.000
540.001,0.083,0.000
540.002,0.083,0.000
540.004,0.083,0.000
540.004,0.083,0.000
549.998,0.081,0.000
549.999,0.081,0.000
549.999,0.081,0.000
550.000,0.081,0.000
550.000,0.081,0.000
550.001,0.081,0.000
550.001,0.081,0.000
550.001,0.081,0.000
550.002,0.081,0.000
559.999,0.079,0.000
559.999,0.079,0.000
560.001,0.079,0.000
560.002,0.079,0.000
560.003,0.079,0.000
570.000,0.077,0.000
570.002,0.077,0.000
570.003,0.077,0.000
570.005,0.077,0.000
570.005,0.077,0.000
570.008,0.077,0.000
579.993,0.075,0.000
579.999,0.075,0.000
579.999,0.075,0.000
579.999,0.075,0.000
579.999,0.075,0.000
580.000,0.075,0.000
580.003,0.075,0.000
580.003,0.075,0.000
589.997,0.073,0.000
589.997,0.073,0.000
589.999,0.073,0.000
590.000,0.073,0.000
590.002,0.073,0.000
590.002,0.073,0.000
590.005,0.073,0.000
599.992,0.071,0.000
599.995,0.071,0.000
599.998,0.071,0.000
600.001,0.071,0.000
600.004,0.071,0.000
600.005,0.071,0.000
609.996,0.070,0.000
609.998,0.070,0.000
609.998,0.070,0.000
610.001,0.070,0.000
610.001,0.070,0.000
619.995,0.068,0.000
619.996,0.068,0.000
619.998,0.068,0.000
619.999,0.068,0.000
619.999,0.068,0.000
620.002,0.068,0.000
629.994,0.067,0.000
629.997,0.067,0.000
629.998,0.067,0.000
629.998,0.067,0.000
630.003,0.067,0.000
639.998,0.065,0.000
639.999,0.065,0.000
639.999,0.065,0.000
640.001,0.065,0.000
640.005,0.065,0.000
649.914,0.064,0.000
650.000,0.064,0.000
650.000,0.064,0.000
650.000,0.064,0.000
650.001,0.064,0.000
650.001,0.064,0.000
659.996,0.063,0.000
659.996,0.063,0.000
659.997,0.063,0.000
659.998,0.063,0.000
660.001,0.063,0.000
669.966,0.062,0.000
670.001,0.062,0.000
670.003,0.062,0.000
670.007,0.062,0.000
670.008,0.062,0.000
670.008,0.062,0.000
679.995,0.061,0.000
679.995,0.060,0.000
680.000,0.060,0.000
680.003,0.061,0.000
680.003,0.061,0.000
680.005,0.060,0.000
689.994,0.059,0.000
690.001,0.059,0.000
690.001,0.059,0.000
690.002,0.059,0.000
690.003,0.059,0.000
699.996,0.058,0.000
699.997,0.058,0.000
699.998,0.058,0.000
700.002,0.058,0.000
700.004,0.058,0.000
700.009,0.058,0.000
709.995,0.057,0.000
709.997,0.057,0.000
710.001,0.057,0.000
710.002,0.057,0.000
710.006,0.057,0.000
719.994,0.056,0.000
719.994,0.056,0.000
719.998,0.056,0.000
720.003,0.056,0.000
729.992,0.055,0.000
729.999,0.055,0.000
730.000,0.055,0.000
730.002,0.055,0.000
730.004,0.055,0.000
730.004,0.055,0.000
730.009,0.055,0.000
739.244,0.054,0.000
739.995,0.054,0.000
739.997,0.054,0.000
740.003,0.054,0.000
740.004,0.054,0.000
740.007,0.054,0.000
749.994,0.054,0.000
749.997,0.054,0.000
749.998,0.054,0.000
749.998,0.054,0.000
750.000,0.054,0.000
759.967,0.053,0.000
760.000,0.053,0.000
760.000,0.053,0.000
760.000,0.053,0.000
760.004,0.053,0.000
760.005,0.053,0.000
769.996,0.052,0.000
769.999,0.052,0.000
770.000,0.052,0.000
770.003,0.052,0.000
770.006,0.052,0.000
779.999,0.051,0.000
779.999,0.051,0.000
780.000,0.051,0.000
780.002,0.051,0.000
780.002,0.051,0.000
780.003,0.051,0.000
789.997,0.050,0.000
790.000,0.050,0.000
790.001,0.050,0.000
790.007,0.050,0.000
790.008,0.050,0.000
799.993,0.050,0.000
799.997,0.049,0.000
800.000,0.049,0.000
800.000,0.049,0.000
800.003,0.049,0.000
800.009,0.049,0.000
809.992,0.049,0.000
809.995,0.049,0.000
809.996,0.049,0.000
809.996,0.049,0.000
810.000,0.049,0.000
810.010,0.049,0.000
819.997,0.048,0.000
819.999,0.048,0.000
820.001,0.048,0.000
820.001,0.048,0.000
820.002,0.048,0.000
820.002,0.048,0.000
829.996,0.047,0.000
829.997,0.047,0.000
830.002,0.047,0.000
830.003,0.047,0.000
830.004,0.047,0.000
839.992,0.047,0.000
839.997,0.047,0.000
839.998,0.047,0.000
840.000,0.047,0.000
840.005,0.047,0.000
849.991,0.046,0.000
849.994,0.046,0.000
850.003,0.046,0.000
850.004,0.046,0.000
850.008,0.046,0.000
850.009,0.046,0.000
859.991,0.045,0.000
859.994,0.045,0.000
859.998,0.045,0.000
860.003,0.045,0.000
860.008,0.045,0.000
869.991,0.045,0.000
870.000,0.045,0.000
870.001,0.045,0.000
870.006,0.045,0.000
870.018,0.045,0.000
879.997,0.044,0.000
879.999,0.044,0.000
880.000,0.044,0.000
880.002,0.044,0.000
880.002,0.044,0.000
889.992,0.044,0.000
889.993,0.044,0.000
890.002,0.044,0.000
890.004,0.044,0.000
890.011,0.044,0.000
899.998,0.043,0.000
899.999,0.043,0.000
900.003,0.043,0.000
900.003,0.043,0.000
900.016,0.043,0.000
900.016,0.043,0.000
909.996,0.043,0.000
909.997,0.042,0.000
909.997,0.042,0.000
910.004,0.043,0.000
910.008,0.043,0.000
919.995,0.042,0.000
919.997,0.042,0.000
920.000,0.042,0.000
920.007,0.042,0.000
920.007,0.042,0.000
922.615,0.042,0.000
929.996,0.041,0.000
929.997,0.041,0.000
929.997,0.041,0.000
929.998,0.041,0.000
930.001,0.041,0.000
939.991,0.041,0.000
939.997,0.041,0.000
940.007,0.041,0.000
940.007,0.041,0.000
940.010,0.041,0.000
950.000,0.040,0.000
950.003,0.040,0.000
950.006,0.040,0.000
950.010,0.040,0.000
950.016,0.040,0.000
960.001,0.040,0.000
960.001,0.040,0.000
960.001,0.040,0.000
960.005,0.040,0.000
960.005,0.040,0.000
969.992,0.039,0.000
969.996,0.039,0.000
969.998,0.039,0.000
970.005,0.039,0.000
970.009,0.039,0.000
979.995,0.039,0.000
979.997,0.039,0.000
980.000,0.039,0.000
980.003,0.039,0.000
989.990,0.039,0.000
989.996,0.039,0.000
989.998,0.039,0.000
989.999,0.039,0.000
990.006,0.039,0.000
990.007,0.039,0.000
999.987,0.038,0.000
999.989,0.038,0.000
999.990,0.038,0.000
1000.001,0.038,0.000
1000.002,0.038,0.000
1000.003,0.038,0.000